{
    "resourceType": "Bundle",
    "id": "603e04f0-7bce-4b8e-a02c-83d640faca78",
    "type": "collection",
    "entry": [
        {
            "resource": {
                "resourceType": "Patient",
                "id": "737fca6f-3e2e-434e-9ba0-962954030d00",
                "meta": {
                    "profile": [
                        "http://uk-koeln.de/fhir/StructureDefinition/Patient/nNGM/pseudonymisiert"
                    ]
                },
                "birthDate": "1957-08-24",
                "identifier": {
                    "system": "http://uk-koeln.de/fhir/NamingSystem/nNGM/patient-identifier",
                    "value": "12345"
                },
                "gender": "male"
            }
        },
        {
            "resource": {
                "resourceType": "Coverage",
                "id": "4f50dd7b-f988-4a22-8def-a754e754e296",
                "meta": {
                    "profile": [
                        "http://uk-koeln.de/fhir/StructureDefinition/Coverage/nNGM/pseudonymisiert"
                    ]
                },
                "status": "active",
                "beneficiary": {
                    "reference": "Patient/1e7fb494-860e-4ee1-96dd-91388dba53a9",
                    "_reference": {
                        "extension": [
                            {
                                "url": "http://hl7.org/fhir/StructureDefinition/data-absent-reason",
                                "valueCode": "not-asked"
                            }
                        ]
                    }
                },
                "type": {
                    "coding": [
                        {
                            "system": "http://fhir.de/CodeSystem/versicherungsart-de-basis",
                            "code": "GKV"
                        }
                    ]
                },
                "payor": [
                    {
                        "display": "TK - Techniker Krankenkasse",
                        "extension": [
                            {
                                "url": "http://uk-koeln.de/fhir/StructureDefinition/Extension/nNGM/abrechnungsinformation",
                                "valueCodeableConcept": {
                                    "coding": [
                                        {
                                            "system": "http://uk-koeln.de/fhir/CodeSystem/nngm/abrechnungsinformation",
                                            "code": "§116B/interner Fall"
                                        }
                                    ]
                                }
                            }
                        ]
                    }
                ],
                "extension": [
                    {
                        "url": "http://uk-koeln.de/fhir/StructureDefinition/Extension/nNGM/kooperationsvereinbarung",
                        "valueBoolean": false
                    }
                ]
            }
        },
        {
            "resource": {
                "resourceType": "Specimen",
                "id": "76fac828-8e1b-47ea-b68c-b42209c7a557",
                "meta": {
                    "profile": [
                        "http://uk-koeln.de/fhir/StructureDefinition/Specimen/nNGM"
                    ]
                },
                "subject": {
                    "reference": "Patient/737fca6f-3e2e-434e-9ba0-962954030d00"
                },
                "identifier": [
                    {
                        "value": "E123456/20",
                        "system": "http://uk-koeln.de/NamingSystem/nNGM/eingangPathoNummer"
                    }
                ],
                "collection": {
                    "collectedDateTime": "2019-11-01"
                },
                "receivedTime": "2019-11-01",
                "type": {
                    "coding": [
                        {
                            "system": "http://snomed.info/sct",
                            "version": "http://snomed.info/sct/900000000000207008",
                            "code": {
                                "extension": [
                                    {
                                        "url": "http://hl7.org/fhir/StructureDefinition/data-absent-reason",
                                        "valueCode": "not-asked"
                                    }
                                ]
                            }
                        }
                    ]
                }
            }
        },
        {
            "resource": {
                "resourceType": "Observation",
                "id": "093cbda6-28f1-4e7d-8731-105ea0ea3618",
                "meta": {
                    "profile": [
                        "http://uk-koeln.de/fhir/StructureDefinition/Observation/nNGM/histologie"
                    ]
                },
                "extension": [
                    {
                        "url": "http://hl7.org/fhir/StructureDefinition/workflow-episodeOfCare",
                        "valueReference": 
                            {
                                "reference": "EpisodeOfCare/8cf5cd88-d4fc-4fd5-b6c9-569f0c232e5b"
                            }
                    }
                ],
                "subject": {
                    "reference": "Patient/737fca6f-3e2e-434e-9ba0-962954030d00"
                },
                "category": [
                    {
                        "coding": [
                            {
                                "system": "http://terminology.hl7.org/CodeSystem/observation-category",
                                "code": "laboratory"
                            }
                        ]
                    }
                ],
                "status": "final",
                "code": {
                    "coding": [
                        {
                            "system": "http://ncit.nci.nih.gov",
                            "code": "C18000",
                            "display": "Histologic Grade"
                        }
                    ]
                },
                "valueCodeableConcept": {
                    "coding": [
                        {
                            "system": "urn:oid:2.16.840.1.113883.15.16",
                            "code": "G2",
                            "display": "G2"
                        }
                    ]
                },
                "bodySite": {
                    "coding": [
                        {
                            "system": "urn:oid:2.16.840.1.113883.6.43.1",
                            "code": "C34.1.",
                            "display": "Lungenoberlappen"
                        }
                    ]
                },
                "component": [
                    {
                        "valueCodeableConcept": {
                            "coding": [
                                {
                                    "system": "urn:oid:2.16.840.1.113883.6.43.1",
                                    "code": "8140/3",
                                    "display": "Adenokarzinom o.n.A."
                                }
                            ]
                        },
                        "code": {
                            "coding": [
                                {
                                    "system": "http://ncit.nci.nih.gov",
                                    "code": "C25161"
                                }
                            ]
                        }
                    }
                ]
            }
        },
        {
            "resource": {
                "resourceType": "ServiceRequest",
                "id": "2b126a03-2995-426d-9832-b0e954c3ccc0",
                "meta": {
                    "profile": [
                        "http://uk-koeln.de/fhir/StructureDefinition/ServiceRequest/nNGM/testung"
                    ]
                },
                "subject": {
                    "reference": "Patient/737fca6f-3e2e-434e-9ba0-962954030d00"
                },
                "intent": "proposal",
                "status": "completed",
                "_status": {
                    "extension": [
                        {
                            "url": "http://uk-koeln.de/fhir/StructureDefinition/Extension/nNGM/statusAbschluss",
                            "extension": [
                                {
                                    "url": "status",
                                    "valueCodeableConcept": {
                                        "coding": [
                                            {
                                                "system": "http://uk-koeln.de/fhir/ValueSet/NNGM/statusAbschluss",
                                                "code": "vollständig",
                                                "display": "vollständig"
                                            }
                                        ]
                                    }
                                }
                            ]
                        },
                        {
                            "url": "http://uk-koeln.de/fhir/StructureDefinition/Extension/nNGM/statusAbschluss",
                            "extension": [
                                {
                                    "url": "datum",
                                    "valueDate": "2019-11-11"
                                }
                            ]
                        }
                    ]
                },
                "code": {
                    "coding": [
                        {
                            "system": {
                                "extension": [
                                    {
                                        "url": "http://hl7.org/fhir/StructureDefinition/data-absent-reason",
                                        "valueCode": "not-asked"
                                    }
                                ]
                            }
                        }
                    ]
                },
                "authoredOn": {
                    "extension": [
                        {
                            "url": "http://hl7.org/fhir/StructureDefinition/data-absent-reason",
                            "valueCode": "not-asked"
                        }
                    ]
                }
            }
        },
        {
            "resource": {
                "resourceType": "Observation",
                "id": "40b2c443-4177-425b-94a9-9be3280570fe",
                "meta": {
                    "profile": [
                        "http://uk-koeln.de/fhir/StructureDefinition/Observation/fish"
                    ]
                },
                "extension": [
                    {
                        "url": "http://hl7.org/fhir/StructureDefinition/workflow-episodeOfCare",
                        "valueReference": 
                        {
                            "reference": "EpisodeOfCare/8cf5cd88-d4fc-4fd5-b6c9-569f0c232e5b"
                        }                    
                    }
                ],
                "method": {
                    "coding": [
                        {
                            "system": "http://ncit.nci.nih.gov",
                            "code": "C17563"
                        }
                    ]
                },
                "status": "final",
                "effectivePeriod": {
                    "start": "2019-11-10",
                    "end": "2019-11-10"
                },
                "category": [
                    {
                        "coding": [
                            {
                                "system": "http://terminology.hl7.org/CodeSystem/observation-category",
                                "code": "laboratory"
                            }
                        ]
                    }
                ],
                "code": {
                    "coding": [
                        {
                            "system": "http://uk-koeln.de/fhir/CodeSystem/nNGM/molpatho-obs-codes",
                            "code": "RET"
                        }
                    ]
                },
                "valueCodeableConcept": {
                    "coding": [
                        {
                            "system": "http://uk-koeln.de/fhir/CodeSystems/nNGM/ergebnis",
                            "code": "negativ",
                            "display": "negativ"
                        }
                    ]
                },
                "component": [
                    {
                        "valueCodeableConcept": {
                            "coding": [
                                {
                                    "system": "http://loinc.org",
                                    "code": "negativ",
                                    "display": "negativ"
                                }
                            ]
                        },
                        "code": {
                            "coding": [
                                {
                                    "system": "http://uk-koeln.de/fhir/CodeSystem/tbd-codes",
                                    "code": "amplification-level"
                                }
                            ]
                        }
                    },
                    {
                        "valueInteger": 100,
                        "code": {
                            "coding": [
                                {
                                    "system": "http://ncit.nci.nih.gov",
                                    "code": "C0007584"
                                }
                            ]
                        }
                    }
                ]
            }
        },
        {
            "resource": {
                "resourceType": "Observation",
                "id": "0ca98919-6457-46ed-9194-41b5c9815fdc",
                "meta": {
                    "profile": [
                        "http://uk-koeln.de/fhir/StructureDefinition/Observation/ish"
                    ]
                },
                "extension": [
                    {
                        "url": "http://hl7.org/fhir/StructureDefinition/workflow-episodeOfCare",
                        "valueReference": 
                        {
                            "reference": "EpisodeOfCare/8cf5cd88-d4fc-4fd5-b6c9-569f0c232e5b"
                        } 
                    }
                ],
                "method": {
                    "coding": [
                        {
                            "system": "http://ncit.nci.nih.gov",
                            "code": "C23022"
                        }
                    ]
                },
                "status": "final",
                "effectivePeriod": {
                    "start": "2019-11-10",
                    "end": "2019-11-10"
                },
                "category": [
                    {
                        "coding": [
                            {
                                "system": "http://terminology.hl7.org/CodeSystem/observation-category",
                                "code": "laboratory"
                            }
                        ]
                    }
                ],
                "code": {
                    "coding": [
                        {
                            "system": "http://uk-koeln.de/fhir/CodeSystem/nNGM/molpatho-obs-codes",
                            "code": "RET"
                        }
                    ]
                },
                "valueCodeableConcept": {
                    "coding": [
                        {
                            "system": "http://uk-koeln.de/fhir/CodeSystems/nNGM/ergebnis",
                            "code": "negativ",
                            "display": "negativ"
                        }
                    ]
                },
                "component": [
                    {
                        "valueQuantity": {
                            "value": 2,
                            "system": "http://unitsofmeasure.org",
                            "unit": "%",
                            "code": "%"
                        },
                        "code": {
                            "coding": [
                                {
                                    "system": "http://ncit.nci.nih.gov",
                                    "code": "C70460"
                                }
                            ]
                        }
                    }
                ]
            }
        },
        {
            "resource": {
                "resourceType": "Observation",
                "id": "29d70540-17b0-4a2e-9576-18fa3c4975a4",
                "meta": {
                    "profile": [
                        "http://uk-koeln.de/fhir/StructureDefinition/Observation/ngs-panel"
                    ]
                },
                "extension": [
                    {
                        "url": "http://hl7.org/fhir/StructureDefinition/workflow-episodeOfCare",
                        "valueReference": 
                        {
                            "reference": "EpisodeOfCare/8cf5cd88-d4fc-4fd5-b6c9-569f0c232e5b"
                        } 
                    }
                ],
                "category": [
                    {
                        "coding": [
                            {
                                "system": "http://terminology.hl7.org/CodeSystem/observation-category",
                                "code": "laboratory"
                            }
                        ]
                    }
                ],
                "code": {
                    "coding": [
                        {
                            "system": "http://uk-koeln.de/fhir/CodeSystem/nNGM/molpatho-obs-codes",
                            "code": "NGS Panel"
                        }
                    ]
                },
                "valueCodeableConcept": {
                    "coding": [
                        {
                            "system": "http://loinc.org",
                            "code": "LA6576-8"
                        }
                    ]
                },
                "subject": {
                    "reference": "Patient/737fca6f-3e2e-434e-9ba0-962954030d00"
                },
                "method": {
                    "coding": [
                        {
                            "system": "http://ncit.nci.nih.gov",
                            "code": "C101293"
                        }
                    ]
                },
                "status": "final",
                "component": [
                    {
                        "valueCodeableConcept": {
                            "coding": [
                                {
                                    "system": "http://hl7.org/fhir/uv/genomics-reporting/ValueSet/hgnc",
                                    "code": "EGFR NM_005228.3"
                                }
                            ]
                        },
                        "code": {
                            "coding": [
                                {
                                    "system": "http://ncit.nci.nih.gov",
                                    "code": "C16612"
                                }
                            ]
                        }
                    },
                    {
                        "valueInteger": 21,
                        "code": {
                            "coding": [
                                {
                                    "system": "http://ncit.nci.nih.gov",
                                    "code": "C13231"
                                }
                            ]
                        }
                    },
                    {
                        "valueString": "p.L858R",
                        "code": {
                            "coding": [
                                {
                                    "system": "http://ncit.nci.nih.gov",
                                    "code": "48005-3"
                                }
                            ]
                        }
                    },
                    {
                        "valueQuantity": {
                            "value": 46,
                            "system": "http://unitsofmeasure.org",
                            "unit": "%",
                            "code": "%"
                        },
                        "code": {
                            "coding": [
                                {
                                    "system": "http://ncit.nci.nih.gov",
                                    "code": "AllelicFraction"
                                }
                            ]
                        }
                    },
                    {
                        "valueString": "pathogen",
                        "code": {
                            "coding": [
                                {
                                    "system": "http://ncit.nci.nih.gov",
                                    "code": "BiologischeMolekulareBewertung"
                                }
                            ]
                        }
                    }
                ],
                "effectiveDateTime": "2019-11-09"
            }
        },
        {
            "resource": {
                "resourceType": "Observation",
                "id": "8c035fb6-4ed5-4b7b-aa48-42e064c54970",
                "meta": {
                    "profile": [
                        "http://uk-koeln.de/fhir/StructureDefinition/Observation/ngs-panel"
                    ]
                },
                "extension": [
                    {
                        "url": "http://hl7.org/fhir/StructureDefinition/workflow-episodeOfCare",
                        "valueReference": 
                        {
                            "reference": "EpisodeOfCare/8cf5cd88-d4fc-4fd5-b6c9-569f0c232e5b"
                        } 
                    }
                ],
                "category": [
                    {
                        "coding": [
                            {
                                "system": "http://terminology.hl7.org/CodeSystem/observation-category",
                                "code": "laboratory"
                            }
                        ]
                    }
                ],
                "code": {
                    "coding": [
                        {
                            "system": "http://uk-koeln.de/fhir/CodeSystem/nNGM/molpatho-obs-codes",
                            "code": "NGS Panel"
                        }
                    ]
                },
                "subject": {
                    "reference": "Patient/737fca6f-3e2e-434e-9ba0-962954030d00"
                },
                "method": {
                    "coding": [
                        {
                            "system": "http://ncit.nci.nih.gov",
                            "code": "C101293"
                        }
                    ]
                },
                "valueCodeableConcept": {
                    "coding": [
                        {
                            "system": "http://loinc.org",
                            "code": "LA6576-8"
                        }
                    ]
                },
                "status": "final",
                "component": [
                    {
                        "valueCodeableConcept": {
                            "coding": [
                                {
                                    "system": "http://hl7.org/fhir/uv/genomics-reporting/ValueSet/hgnc",
                                    "code": "TP53 NM_000546.5"
                                }
                            ]
                        },
                        "code": {
                            "coding": [
                                {
                                    "system": "http://ncit.nci.nih.gov",
                                    "code": "C16612"
                                }
                            ]
                        }
                    },
                    {
                        "valueInteger": 6,
                        "code": {
                            "coding": [
                                {
                                    "system": "http://ncit.nci.nih.gov",
                                    "code": "C13231"
                                }
                            ]
                        }
                    },
                    {
                        "valueString": "p.V218fs",
                        "code": {
                            "coding": [
                                {
                                    "system": "http://ncit.nci.nih.gov",
                                    "code": "48005-3"
                                }
                            ]
                        }
                    },
                    {
                        "valueQuantity": {
                            "value": 39,
                            "system": "http://unitsofmeasure.org",
                            "unit": "%",
                            "code": "%"
                        },
                        "code": {
                            "coding": [
                                {
                                    "system": "http://ncit.nci.nih.gov",
                                    "code": "AllelicFraction"
                                }
                            ]
                        }
                    },
                    {
                        "valueString": "pathogen",
                        "code": {
                            "coding": [
                                {
                                    "system": "http://ncit.nci.nih.gov",
                                    "code": "BiologischeMolekulareBewertung"
                                }
                            ]
                        }
                    }
                ]
            }
        },
        {
            "resource": {
                "resourceType": "Device",
                "id": "0df98768-d5d1-421b-82ad-a947855d9487",
                "meta": {
                    "profile": [
                        "http://uk-koeln.de/fhir/StructureDefinition/Device"
                    ]
                },
                "version": [
                    {
                        "value": "01.0"
                    }
                ],
                "type": {
                    "coding": [
                        {
                            "system": "http://hl7.org/fhir/ValueSet/nngm-device-typ",
                            "code": "MiSeq"
                        }
                    ]
                },
                "manufacturer": "Illumina",
                "distinctIdentifier": "nNGM v1.0"
            }
        },
        {
            "resource": {
                "resourceType": "ServiceRequest",
                "id": "ef86f4e2-7546-43a7-945f-4fba20d2d3dc",
                "meta": {
                    "profile": [
                        "http://uk-koeln.de/fhir/StructureDefinition/ServiceRequest/nNGM/testung"
                    ]
                },
                "subject": {
                    "reference": "Patient/737fca6f-3e2e-434e-9ba0-962954030d00"
                },
                "intent": "proposal",
                "status": "completed",
                "code": {
                    "coding": [
                        {
                            "system": {
                                "extension": [
                                    {
                                        "url": "http://hl7.org/fhir/StructureDefinition/data-absent-reason",
                                        "valueCode": "not-asked"
                                    }
                                ]
                            }
                        }
                    ]
                },
                "authoredOn": {
                    "extension": [
                        {
                            "url": "http://hl7.org/fhir/StructureDefinition/data-absent-reason",
                            "valueCode": "not-asked"
                        }
                    ]
                }
            }
        },
        {
            "resource": {
                "resourceType": "DiagnosticReport",
                "id": "13216ffb-351e-4cd2-96f1-2c25b84b0086",
                "meta": {
                    "profile": [
                        "http://uk-koeln.de/fhir/StructureDefinition/DiagnosticReport/nNGM/beurteilung"
                    ]
                },
                "extension": [
                    {
                        "url": "http://hl7.org/fhir/StructureDefinition/workflow-episodeOfCare",
                        "valueReference": 
                        {
                            "reference": "EpisodeOfCare/8cf5cd88-d4fc-4fd5-b6c9-569f0c232e5b"
                        } 
                    }
                ],
                "subject": {
                    "reference": "Patient/737fca6f-3e2e-434e-9ba0-962954030d00"
                },
                "code": {
                    "coding": [
                        {
                            "system": "http://ncit.nci.nih.gov",
                            "code": "C125009"
                        }
                    ]
                },
                "effectiveDateTime": "2019-11-11",
                "status": "final",
                "conclusionCode": [
                    {
                        "coding": [
                            {
                                "system": "http://loinc.org",
                                "code": "LA33-6"
                            }
                        ],
                        "extension": [
                            {
                                "valueBoolean": true,
                                "url": "http://uk-koeln.de/fhir/Extension/nNGM/beurteilung-empfehlung-systemische-therapie"
                            }
                        ]
                    }
                ]
            }
        },
        {
            "resource": {
                "resourceType": "ServiceRequest",
                "id": "e5347761-ae46-4540-a189-1c30923d8393",
                "meta": {
                    "profile": [
                        "http://uk-koeln.de/fhir/StructureDefinition/ServiceRequest/nNGM/testung"
                    ]
                },
                "subject": {
                    "reference": "Patient/737fca6f-3e2e-434e-9ba0-962954030d00"
                },
                "intent": "proposal",
                "status": "completed",
                "code": {
                    "coding": [
                        {
                            "system": {
                                "extension": [
                                    {
                                        "url": "http://hl7.org/fhir/StructureDefinition/data-absent-reason",
                                        "valueCode": "not-asked"
                                    }
                                ]
                            }
                        }
                    ]
                },
                "authoredOn": {
                    "extension": [
                        {
                            "url": "http://hl7.org/fhir/StructureDefinition/data-absent-reason",
                            "valueCode": "not-asked"
                        }
                    ]
                }
            }
        },
        {
            "resource": {
                "resourceType": "Observation",
                "id": "496196ac-c7b3-4a5f-a36f-07268c2331a1",
                "meta": {
                    "profile": [
                        "http://uk-koeln.de/fhir/StructureDefinition/Observation/ihc"
                    ]
                },
                "extension": [
                    {
                        "url": "http://hl7.org/fhir/StructureDefinition/workflow-episodeOfCare",
                        "valueReference": 
                        {
                            "reference": "EpisodeOfCare/8cf5cd88-d4fc-4fd5-b6c9-569f0c232e5b"
                        } 
                    }
                ],
                "status": "final",
                "subject": {
                    "reference": "Patient/737fca6f-3e2e-434e-9ba0-962954030d00"
                },
                "code": {
                    "coding": [
                        {
                            "system": "http://uk-koeln.de/fhir/CodeSystem/nNGM/molpatho-obs-codes",
                            "code": "CK7"
                        }
                    ]
                },
                "category": [
                    {
                        "coding": [
                            {
                                "system": "http://terminology.hl7.org/CodeSystem/observation-category",
                                "code": "laboratory"
                            }
                        ]
                    }
                ],
                "method": [
                    {
                        "coding": [
                            {
                                "system": "http://ncit.nci.nih.gov",
                                "code": "C23020"
                            }
                        ]
                    }
                ],
                "effectivePeriod": {
                    "start": "2019-11-03"
                },
                "valueCodeableConcept": {
                    "coding": [
                        {
                            "system": "http://uk-koeln.de/fhir/CodeSystems/nNGM/ergebnis",
                            "code": "positiv",
                            "display": "positiv"
                        }
                    ]
                },
                "component": [
                    {
                        "valueCodeableConcept": {
                            "coding": {
                                "system": "https://ncit.nci.nih.gov",
                                "code": "C80488"
                            }
                        },
                        "code": {
                            "coding": [
                                {
                                    "system": "http://ncit.nci.nih.gov",
                                    "code": "C16977"
                                }
                            ]
                        }
                    }
                ]
            }
        },
        {
            "resource": {
                "resourceType": "Organization",
                "id": "3c528f3a-3dcf-47e3-845d-4e9c2af3553e",
                "meta": {
                    "profile": [
                        "http://uk-koeln.de/fhir/StructureDefinition/Organization/clinical-site"
                    ]
                },
                "name": "Essen"
            }
        },
        {
            "resource": {
                "resourceType": "Observation",
                "id": "4d3a5acc-a08a-495f-9ed0-386c35e0d036",
                "meta": {
                    "profile": [
                        "http://uk-koeln.de/fhir/StructureDefinition/Observation/ihc"
                    ]
                },
                "extension": [
                    {
                        "url": "http://hl7.org/fhir/StructureDefinition/workflow-episodeOfCare",
                        "valueReference": 
                        {
                            "reference": "EpisodeOfCare/8cf5cd88-d4fc-4fd5-b6c9-569f0c232e5b"
                        } 
                    }
                ],
                "status": "final",
                "subject": {
                    "reference": "Patient/737fca6f-3e2e-434e-9ba0-962954030d00"
                },
                "code": {
                    "coding": [
                        {
                            "system": "http://uk-koeln.de/fhir/CodeSystem/nNGM/molpatho-obs-codes",
                            "code": "P40"
                        }
                    ]
                },
                "method": [
                    {
                        "coding": [
                            {
                                "system": "http://ncit.nci.nih.gov",
                                "code": "C23020"
                            }
                        ]
                    }
                ],
                "category": [
                    {
                        "coding": [
                            {
                                "system": "http://terminology.hl7.org/CodeSystem/observation-category",
                                "code": "laboratory"
                            }
                        ]
                    }
                ],
                "effectivePeriod": {
                    "start": "2019-11-03"
                },
                "valueCodeableConcept": {
                    "coding": [
                        {
                            "system": "http://uk-koeln.de/fhir/CodeSystems/nNGM/ergebnis",
                            "code": "negativ",
                            "display": "negativ"
                        }
                    ]
                },
                "component": [
                    {
                        "valueCodeableConcept": {
                            "coding": {
                                "system": "https://ncit.nci.nih.gov",
                                "code": "C80488"
                            }
                        },
                        "code": {
                            "coding": [
                                {
                                    "system": "http://ncit.nci.nih.gov",
                                    "code": "C16977"
                                }
                            ]
                        }
                    }
                ]
            }
        },
        {
            "resource": {
                "resourceType": "Observation",
                "id": "7efe4a8d-408e-48e7-8fbe-b0674d22fbba",
                "meta": {
                    "profile": [
                        "http://uk-koeln.de/fhir/StructureDefinition/Observation/ihc"
                    ]
                },
                "extension": [
                    {
                        "url": "http://hl7.org/fhir/StructureDefinition/workflow-episodeOfCare",
                        "valueReference": 
                        {
                            "reference": "EpisodeOfCare/8cf5cd88-d4fc-4fd5-b6c9-569f0c232e5b"
                        } 
                    }
                ],
                "status": "final",
                "subject": {
                    "reference": "Patient/737fca6f-3e2e-434e-9ba0-962954030d00"
                },
                "code": {
                    "coding": [
                        {
                            "system": "http://uk-koeln.de/fhir/CodeSystem/nNGM/molpatho-obs-codes",
                            "code": "TTF1"
                        }
                    ]
                },
                "method": [
                    {
                        "coding": [
                            {
                                "system": "http://ncit.nci.nih.gov",
                                "code": "C23020"
                            }
                        ]
                    }
                ],
                "category": [
                    {
                        "coding": [
                            {
                                "system": "http://terminology.hl7.org/CodeSystem/observation-category",
                                "code": "laboratory"
                            }
                        ]
                    }
                ],
                "effectivePeriod": {
                    "start": "2019-11-03"
                },
                "valueCodeableConcept": {
                    "coding": [
                        {
                            "system": "http://uk-koeln.de/fhir/CodeSystems/nNGM/ergebnis",
                            "code": "positiv",
                            "display": "positiv"
                        }
                    ]
                },
                "component": [
                    {
                        "valueCodeableConcept": {
                            "coding": {
                                "system": "https://ncit.nci.nih.gov",
                                "code": "C80488"
                            }
                        },
                        "code": {
                            "coding": [
                                {
                                    "system": "http://ncit.nci.nih.gov",
                                    "code": "C16977"
                                }
                            ]
                        }
                    }
                ]
            }
        },
        {
            "resource": {
                "resourceType": "Observation",
                "id": "f1f5bbff-a9b3-421c-bc20-8f20e4b65b12",
                "meta": {
                    "profile": [
                        "http://uk-koeln.de/fhir/StructureDefinition/Observation/ihc"
                    ]
                },
                "extension": [
                    {
                        "url": "http://hl7.org/fhir/StructureDefinition/workflow-episodeOfCare",
                        "valueReference": 
                        {
                            "reference": "EpisodeOfCare/8cf5cd88-d4fc-4fd5-b6c9-569f0c232e5b"
                        } 
                    }
                ],
                "status": "final", 
                "subject": {
                    "reference": "Patient/737fca6f-3e2e-434e-9ba0-962954030d00"
                },
                "code": {
                    "coding": [
                        {
                            "system": "http://uk-koeln.de/fhir/CodeSystem/nNGM/molpatho-obs-codes",
                            "code": "ALK"
                        }
                    ]
                },
                "category": [
                    {
                        "coding": [
                            {
                                "system": "http://terminology.hl7.org/CodeSystem/observation-category",
                                "code": "laboratory"
                            }
                        ]
                    }
                ],
                "method": {
                    "coding": [
                        {
                            "system": "http://ncit.nci.nih.gov",
                            "code": "C23020"
                        }
                    ]
                },
                "effectivePeriod": {
                    "start": "2019-11-03"
                },
                "valueCodeableConcept": {
                    "coding": [
                        {
                            "system": "http://uk-koeln.de/fhir/CodeSystems/nNGM/ergebnis",
                            "code": "negativ",
                            "display": "negativ"
                        }
                    ]
                },
                "component": [
                    {
                        "valueCodeableConcept": {
                            "coding": {
                                "system": "https://ncit.nci.nih.gov",
                                "code": "C80488"
                            }
                        },
                        "code": {
                            "coding": [
                                {
                                    "system": "http://ncit.nci.nih.gov",
                                    "code": "C16977"
                                }
                            ]
                        }
                    }
                ]
            }
        },
        {
            "resource": {
                "resourceType": "Observation",
                "id": "95b26895-c482-46bb-9c76-2e63c2483943",
                "meta": {
                    "profile": [
                        "http://uk-koeln.de/fhir/StructureDefinition/Observation/ihc"
                    ]
                },
                "extension": [
                    {
                        "url": "http://hl7.org/fhir/StructureDefinition/workflow-episodeOfCare",
                        "valueReference": 
                        {
                            "reference": "EpisodeOfCare/8cf5cd88-d4fc-4fd5-b6c9-569f0c232e5b"
                        } 
                    }
                ],
                "status": "final",
                "subject": {
                    "reference": "Patient/737fca6f-3e2e-434e-9ba0-962954030d00"
                },
                "code": {
                    "coding": [
                        {
                            "system": "http://uk-koeln.de/fhir/CodeSystem/nNGM/molpatho-obs-codes",
                            "code": "PD-L1"
                        }
                    ]
                },
                "category": [
                    {
                        "coding": [
                            {
                                "system": "http://terminology.hl7.org/CodeSystem/observation-category",
                                "code": "laboratory"
                            }
                        ]
                    }
                ],
                "method": [
                    {
                        "coding": [
                            {
                                "system": "http://ncit.nci.nih.gov",
                                "code": "C23020"
                            }
                        ]
                    }
                ],
                "effectivePeriod": {
                    "start": "2019-11-03"
                },
                "component": [
                    {
                        "valueQuantity": {
                            "value": 20,
                            "system": "http://unitsofmeasure.org",
                            "unit": "%",
                            "code": "%"
                        },
                        "code": {
                            "coding": [
                                {
                                    "system": "http://ncit.nci.nih.gov",
                                    "code": "C70460"
                                }
                            ]
                        }
                    },
                    {
                        "valueCodeableConcept": {
                            "coding": {
                                "system": "https://ncit.nci.nih.gov",
                                "code": "C80488"
                            }
                        },
                        "code": {
                            "coding": [
                                {
                                    "system": "http://ncit.nci.nih.gov",
                                    "code": "C16977"
                                }
                            ]
                        }
                    }
                ],
                "valueCodeableConcept": {
                    "coding": [
                        {
                            "system": "http://uk-koeln.de/fhir/CodeSystems/nNGM/ergebnis",
                            "code": "auswertbar",
                            "display": "auswertbar"
                        }
                    ]
                }
            }
        },
        {
            "resource": {
                "resourceType": "Observation",
                "id": "96e18b59-2d54-4a58-a607-9ef03671ff75",
                "meta": {
                    "profile": [
                        "http://uk-koeln.de/fhir/StructureDefinition/Observation/ihc"
                    ]
                },
                "extension": [
                    {
                        "url": "http://hl7.org/fhir/StructureDefinition/workflow-episodeOfCare",
                        "valueReference": 
                        {
                            "reference": "EpisodeOfCare/8cf5cd88-d4fc-4fd5-b6c9-569f0c232e5b"
                        } 
                    }
                ],
                "status": "final",
                "code": {
                    "coding": [
                        {
                            "system": "http://uk-koeln.de/fhir/CodeSystem/nNGM/molpatho-obs-codes",
                            "code": "ROS1"
                        }
                    ]
                },
                "method": [
                    {
                        "coding": [
                            {
                                "system": "http://ncit.nci.nih.gov",
                                "code": "C23020"
                            }
                        ]
                    }
                ],
                "subject": {
                    "reference": "Patient/737fca6f-3e2e-434e-9ba0-962954030d00"
                },
                "category": [
                    {
                        "coding": [
                            {
                                "system": "http://terminology.hl7.org/CodeSystem/observation-category",
                                "code": "laboratory"
                            }
                        ]
                    }
                ],
                "effectivePeriod": {
                    "start": "2019-11-03"
                },
                "valueCodeableConcept": {
                    "coding": [
                        {
                            "system": "http://uk-koeln.de/fhir/CodeSystems/nNGM/ergebnis",
                            "code": "negativ",
                            "display": "negativ"
                        }
                    ]
                },
                "component": [
                    {
                        "valueCodeableConcept": {
                            "coding": {
                                "system": "https://ncit.nci.nih.gov",
                                "code": "C80488"
                            }
                        },
                        "code": {
                            "coding": [
                                {
                                    "system": "http://ncit.nci.nih.gov",
                                    "code": "C16977"
                                }
                            ]
                        }
                    }
                ]
            }
        },
        {
            "resource": {
                "resourceType": "ServiceRequest",
                "id": "e1b6c1c9-15d1-40bc-a6db-a3a5827f6d5d",
                "meta": {
                    "profile": [
                        "http://uk-koeln.de/fhir/StructureDefinition/ServiceRequest/nNGM/testung"
                    ]
                },
                "subject": {
                    "reference": "Patient/737fca6f-3e2e-434e-9ba0-962954030d00"
                },
                "intent": "proposal",
                "status": "completed",
                "code": {
                    "coding": [
                        {
                            "system": {
                                "extension": [
                                    {
                                        "url": "http://hl7.org/fhir/StructureDefinition/data-absent-reason",
                                        "valueCode": "not-asked"
                                    }
                                ]
                            }
                        }
                    ]
                },
                "authoredOn": {
                    "extension": [
                        {
                            "url": "http://hl7.org/fhir/StructureDefinition/data-absent-reason",
                            "valueCode": "not-asked"
                        }
                    ]
                }
            }
        },
        {
            "resource": {
                "resourceType": "EpisodeOfCare",
                "id": "8cf5cd88-d4fc-4fd5-b6c9-569f0c232e5b",
                "meta": {
                    "profile": [
                        "http://uk-koeln.de/fhir/StructureDefinition/EpisodeOfCare/nNGM"
                    ]
                },
                "status": "active",
                "patient": {
                    "reference": "Patient/737fca6f-3e2e-434e-9ba0-962954030d00"
                },
                "identifier": [
                    {
                        "value": "1"
                    }
                ]
            }
        }
    ]
}
